<Bundle xmlns="http://hl7.org/fhir" xmlns:hash="java:de.samply.obds2fhir">
   <id value="fde5b936394ab716"/>
   <type value="transaction"/>
   <entry>
      <fullUrl value="http://example.com/Patient/fde5b936394ab716"/>
      <resource>
         <Patient>
            <id value="fde5b936394ab716"/>
            <meta>
               <profile value="http://dktk.dkfz.de/fhir/StructureDefinition/onco-core-Patient-Patient"/>
            </meta>
            <identifier>
               <type>
                  <coding>
                     <system value="http://dktk.dkfz.de/fhir/onco/core/CodeSystem/PseudonymArtCS"/>
                     <code value="Lokal"/>
                  </coding>
               </type>
               <value value="f1292c27bc58595c322a95aff23d9177"/>
            </identifier>
            <gender value="male"/>
            <birthDate value="1980-07-03"/>
         </Patient>
      </resource>
      <request>
         <method value="PUT"/>
         <url value="Patient/fde5b936394ab716"/>
      </request>
   </entry>
   <entry>
      <fullUrl value="http://example.com/Condition/digab15dafaa615fee6"/>
      <resource>
         <Condition>
            <id value="digab15dafaa615fee6"/>
            <meta>
               <profile value="http://dktk.dkfz.de/fhir/StructureDefinition/onco-core-Condition-Primaerdiagnose"/>
            </meta>
            <code>
               <coding>
                  <system value="Sonstige"/>
                  <version value="Sonstige"/>
                  <code value="C62"/>
               </coding>
            </code>
            <bodySite>
               <coding>
                  <system value="urn:oid:2.16.840.1.113883.6.43.1"/>
               </coding>
            </bodySite>
            <subject>
               <reference value="Patient/fde5b936394ab716"/>
            </subject>
            <onsetDateTime value="2021-04-13"/>
            <recordedDate value="2021-04-13"/>
         </Condition>
      </resource>
      <request>
         <method value="PUT"/>
         <url value="Condition/digab15dafaa615fee6"/>
      </request>
   </entry>
   <entry>
      <fullUrl value="http://example.com/Procedure/stc6d52a8a9a41ad00"/>
      <resource>
         <Procedure>
            <id value="stc6d52a8a9a41ad00"/>
            <meta>
               <profile value="http://dktk.dkfz.de/fhir/StructureDefinition/onco-core-Procedure-Strahlentherapie"/>
            </meta>
            <status value="stopped"/>
            <category>
               <coding>
                  <system value="http://dktk.dkfz.de/fhir/onco/core/CodeSystem/SYSTTherapieartCS"/>
                  <code value="ST"/>
                  <display value="Strahlentherapie"/>
               </coding>
            </category>
            <code>
               <coding>
                  <system value="http://fhir.de/CodeSystem/bfarm/ops"/>
                  <code value="8-52"/>
                  <display value="Strahlentherapie"/>
               </coding>
            </code>
            <subject>
               <reference value="Patient/fde5b936394ab716"/>
            </subject>
            <reasonReference>
               <reference value="Condition/digab15dafaa615fee6"/>
            </reasonReference>
            <outcome>
               <coding>
                  <system value="http://dktk.dkfz.de/fhir/onco/core/CodeSystem/EndeGrundCS"/>
                  <code value="A"/>
               </coding>
            </outcome>
         </Procedure>
      </resource>
      <request>
         <method value="PUT"/>
         <url value="Procedure/stc6d52a8a9a41ad00"/>
      </request>
   </entry>
   <entry>
      <fullUrl value="http://example.com/Procedure/sts26dadc0370eaff12-0"/>
      <resource>
         <Procedure>
            <id value="sts26dadc0370eaff12-0"/>
            <meta>
               <profile value="http://dktk.dkfz.de/fhir/StructureDefinition/onco-core-Procedure-Strahlentherapie"/>
            </meta>
            <partOf>
               <reference value="Procedure/stc6d52a8a9a41ad00"/>
            </partOf>
            <status value="in-progress"/>
            <category>
               <coding>
                  <system value="http://dktk.dkfz.de/fhir/onco/core/CodeSystem/SYSTTherapieartCS"/>
                  <code value="ST"/>
                  <display value="Strahlentherapie"/>
               </coding>
            </category>
            <code>
               <coding>
                  <system value="http://fhir.de/CodeSystem/bfarm/ops"/>
                  <code value="8-52"/>
                  <display value="Strahlentherapie"/>
               </coding>
            </code>
            <subject>
               <reference value="Patient/fde5b936394ab716"/>
            </subject>
            <performedPeriod>
               <start value="2021-04-21"/>
            </performedPeriod>
            <reasonReference>
               <reference value="Condition/digab15dafaa615fee6"/>
            </reasonReference>
         </Procedure>
      </resource>
      <request>
         <method value="PUT"/>
         <url value="Procedure/sts26dadc0370eaff12-0"/>
      </request>
   </entry>
</Bundle>
