<Bundle xmlns="http://hl7.org/fhir" xmlns:hash="java:de.samply.obds2fhir">
   <id value="1302b6d11c5b628d"/>
   <type value="transaction"/>
   <entry>
      <fullUrl value="http://example.com/Patient/1302b6d11c5b628d"/>
      <resource>
         <Patient>
            <id value="1302b6d11c5b628d"/>
            <meta>
               <profile value="http://dktk.dkfz.de/fhir/StructureDefinition/onco-core-Patient-Patient"/>
            </meta>
            <identifier>
               <type>
                  <coding>
                     <system value="http://dktk.dkfz.de/fhir/onco/core/CodeSystem/PseudonymArtCS"/>
                     <code value="Lokal"/>
                  </coding>
               </type>
               <value value="1a7655c6af3d85f04c5336e8ffb53d17"/>
            </identifier>
            <gender value="male"/>
            <birthDate value="1993-07-13"/>
         </Patient>
      </resource>
      <request>
         <method value="PUT"/>
         <url value="Patient/1302b6d11c5b628d"/>
      </request>
   </entry>
   <entry>
      <fullUrl value="http://example.com/Specimen/bio644974f7c86b960a"/>
      <resource>
         <Specimen>
            <id value="bio644974f7c86b960a"/>
            <meta>
               <profile value="https://fhir.bbmri.de/StructureDefinition/Specimen"/>
            </meta>
            <status value="available"/>
            <type>
               <coding>
                  <system value="https://fhir.bbmri.de/CodeSystem/SampleMaterialType"/>
                  <code value="whole-blood"/>
               </coding>
            </type>
            <subject>
               <reference value="Patient/1302b6d11c5b628d"/>
            </subject>
            <collection>
               <collectedDateTime value="2024-09-04"/>
            </collection>
            <container>
               <specimenQuantity>
                  <value value="5"/>
                  <unit value="ml"/>
                  <system value="http://unitsofmeasure.org"/>
               </specimenQuantity>
            </container>
         </Specimen>
      </resource>
      <request>
         <method value="PUT"/>
         <url value="Specimen/bio644974f7c86b960a"/>
      </request>
   </entry>
   <entry>
      <fullUrl value="http://example.com/Specimen/bio4399fc25198c082f"/>
      <resource>
         <Specimen>
            <id value="bio4399fc25198c082f"/>
            <meta>
               <profile value="https://fhir.bbmri.de/StructureDefinition/Specimen"/>
            </meta>
            <status value="available"/>
            <type>
               <coding>
                  <system value="https://fhir.bbmri.de/CodeSystem/SampleMaterialType"/>
                  <code value="peripheral-blood-cells-vital"/>
               </coding>
            </type>
            <subject>
               <reference value="Patient/1302b6d11c5b628d"/>
            </subject>
            <parent>
               <reference value="Specimen/bio644974f7c86b960a"/>
            </parent>
            <collection>
               <collectedDateTime value="2024-09-04"/>
               <bodySite>
                  <coding>
                     <system value="urn:oid:1.3.6.1.4.1.19376.1.3.11.36"/>
                     <code value="C59.2"/>
                     <version value="31"/>
                  </coding>
               </bodySite>
            </collection>
         </Specimen>
      </resource>
      <request>
         <method value="PUT"/>
         <url value="Specimen/bio4399fc25198c082f"/>
      </request>
   </entry>
   <entry>
      <fullUrl value="http://example.com/Specimen/bio40336efc81b4c354"/>
      <resource>
         <Specimen>
            <id value="bio40336efc81b4c354"/>
            <meta>
               <profile value="https://fhir.bbmri.de/StructureDefinition/Specimen"/>
            </meta>
            <identifier>
               <system value="http://dktk.dkfz.de/fhir/onco/core/CodeSystem/Projects"/>
               <value value="http://dktk.dkfz.de/fhir/sid/exliquid-specimen"/>
            </identifier>
            <status value="available"/>
            <type>
               <coding>
                  <system value="https://fhir.bbmri.de/CodeSystem/SampleMaterialType"/>
                  <code value="whole-blood"/>
               </coding>
            </type>
            <subject>
               <reference value="Patient/1302b6d11c5b628d"/>
            </subject>
            <parent>
               <reference value="Specimen/bio644974f7c86b960a"/>
            </parent>
            <collection>
               <collectedDateTime value="2006-05-04"/>
               <bodySite>
                  <coding>
                     <system value="urn:oid:1.3.6.1.4.1.19376.1.3.11.36"/>
                     <code value="C39.0"/>
                     <version value="31"/>
                  </coding>
               </bodySite>
            </collection>
            <container>
               <specimenQuantity>
                  <value value="1"/>
                  <unit value="ml"/>
                  <system value="http://unitsofmeasure.org"/>
               </specimenQuantity>
            </container>
         </Specimen>
      </resource>
      <request>
         <method value="PUT"/>
         <url value="Specimen/bio40336efc81b4c354"/>
      </request>
   </entry>
   <entry>
      <fullUrl value="http://example.com/Specimen/bioa632f6eca27ec259"/>
      <resource>
         <Specimen>
            <id value="bioa632f6eca27ec259"/>
            <meta>
               <profile value="https://fhir.bbmri.de/StructureDefinition/Specimen"/>
            </meta>
            <type>
               <coding>
                  <system value="https://fhir.bbmri.de/CodeSystem/SampleMaterialType"/>
                  <code value="ascites"/>
               </coding>
            </type>
            <subject>
               <reference value="Patient/1302b6d11c5b628d"/>
            </subject>
         </Specimen>
      </resource>
      <request>
         <method value="PUT"/>
         <url value="Specimen/bioa632f6eca27ec259"/>
      </request>
   </entry>
   <entry>
      <fullUrl value="http://example.com/Specimen/bio72e8c8d78bd47e2f"/>
      <resource>
         <Specimen>
            <id value="bio72e8c8d78bd47e2f"/>
            <meta>
               <profile value="https://fhir.bbmri.de/StructureDefinition/Specimen"/>
            </meta>
            <identifier>
               <system value="http://dktk.dkfz.de/fhir/onco/core/CodeSystem/Projects"/>
               <value value="http://dktk.dkfz.de/fhir/sid/exliquid-specimen"/>
            </identifier>
            <status value="available"/>
            <type>
               <coding>
                  <system value="https://fhir.bbmri.de/CodeSystem/SampleMaterialType"/>
                  <code value="whole-blood"/>
               </coding>
            </type>
            <subject>
               <reference value="Patient/1302b6d11c5b628d"/>
            </subject>
            <parent>
               <reference value="Specimen/bio644974f7c86b960a"/>
            </parent>
            <collection>
               <collectedDateTime value="2006-05-04"/>
               <bodySite>
                  <coding>
                     <system value="urn:oid:1.3.6.1.4.1.19376.1.3.11.36"/>
                     <code value="C01.0"/>
                     <version value="31"/>
                  </coding>
               </bodySite>
            </collection>
            <container>
               <specimenQuantity>
                  <value value="0"/>
                  <unit value="Unit0"/>
                  <system value="http://unitsofmeasure.org"/>
               </specimenQuantity>
            </container>
         </Specimen>
      </resource>
      <request>
         <method value="PUT"/>
         <url value="Specimen/bio72e8c8d78bd47e2f"/>
      </request>
   </entry>
</Bundle>
